<?xml version="1.0" encoding="UTF-8"?>

<Bundle xmlns="http://hl7.org/fhir">
  <id value="DVCDocSDExample"/>
  <meta>
    <profile value="http://smart.who.int/icvp/StructureDefinition/DVCSDBundle"/>
  </meta>
  <language value="en-GB"/>
  <identifier>
    <system value="urn:oid:2.16.724.4.8.10.200.10"/>
    <value value="157bd032-8b00-4728-b2dc-748bb1501aed"/>
  </identifier>
  <type value="document"/>
  <timestamp value="2024-02-11T11:32:00+01:00"/>
  <entry>
    <fullUrl value="urn:uuid:23451938-53ea-4d4f-b07b-7f557656005e"/>
    <resource>
      <Composition>
        <id value="23451938-53ea-4d4f-b07b-7f557656005e"/>
        <meta>
          <profile value="http://smart.who.int/icvp/StructureDefinition/DVCSDComposition"/>
        </meta>
        <text>
          <extension url="http://smart.who.int/icvp/StructureDefinition/SelectiveDisclosureJWT">
            <valueBoolean value="true"/>
          </extension>
          <status value="generated"/><div xmlns="http://www.w3.org/1999/xhtml">To be added</div>
        </text>
        <extension url="http://smart.who.int/icvp/StructureDefinition/SelectiveDisclosureJWT">
          <valueBoolean value="true"/>
        </extension>
        <identifier>
          <system value="urn:oid:2.16.724.4.8.10.200.10"/>
          <value value="d348b02a-3ab8-4cec-bbec-5186abca8c7d"/>
        </identifier>
        <status value="final"/>
        <type>
          <coding>
            <system value="http://loinc.org"/>
            <code value="82593-5"/>
            <display value="Patient summary Document"/>
          </coding>
        </type>
        <subject>
          <reference value="urn:uuid:2b90dd2b-2dab-4c75-9bb9-a355e07401e8"/>
        </subject>
        <date value="2017-12-11T14:30:00+01:00"/>
        <author>
          <reference value="urn:uuid:1c616b24-3895-48c4-9a02-9a64110351ef"/>
        </author>
        <title value="Patient Summary as of December 11, 2017 14:30"/>
        <confidentiality value="N"/>
        <section>
          <title value="Patient"/>
          <code>
            <coding>
              <system value="http://loinc.org"/>
              <code value="11369-6"/>
            </coding>
          </code>
          <text>
            <extension url="http://smart.who.int/icvp/StructureDefinition/SelectiveDisclosureJWT">
              <valueBoolean value="true"/>
            </extension>
            <status value="generated"/><div xmlns="http://www.w3.org/1999/xhtml">Sample patient</div>
          </text>
          <entry>
            <reference value="urn:uuid:157863f7-fdea-4d11-92ff-f33345a560e4"/>
          </entry>
        </section>
        <section>
          <title value="Immunization"/>
          <code>
            <coding>
              <system value="http://loinc.org"/>
              <code value="11369-6"/>
              <display value="History of Immunization"/>
            </coding>
          </code>
          <text>
            <extension url="http://smart.who.int/icvp/StructureDefinition/SelectiveDisclosureJWT">
              <valueBoolean value="true"/>
            </extension>
            <status value="generated"/><div xmlns="http://www.w3.org/1999/xhtml">Immunization stuff</div>
          </text>
          <entry>
            <reference value="urn:uuid:bc283f8f-0279-4cc1-9d4d-8928b0341d00"/>
          </entry>
        </section>
      </Composition>
    </resource>
  </entry>
  <entry>
    <fullUrl value="urn:uuid:157863f7-fdea-4d11-92ff-f33345a560e4"/>
    <resource>
      <Patient>
        <id value="157863f7-fdea-4d11-92ff-f33345a560e4"/>
        <meta>
          <profile value="http://smart.who.int/icvp/StructureDefinition/DVCSDPatient"/>
        </meta>
        <text>
          <extension url="http://smart.who.int/icvp/StructureDefinition/SelectiveDisclosureJWT">
            <valueBoolean value="true"/>
          </extension>
          <status value="generated"/><div xmlns="http://www.w3.org/1999/xhtml">Test Patient name and demographics</div>
        </text>
        <extension url="http://hl7.org/fhir/StructureDefinition/patient-nationality">
          <extension url="code">
            <valueCodeableConcept>
              <coding>
                <code value="IND"/>
              </coding>
            </valueCodeableConcept>
          </extension>
          <extension url="http://smart.who.int/icvp/StructureDefinition/SelectiveDisclosureJWT">
            <valueBoolean value="true"/>
          </extension>
        </extension>
        <extension url="http://smart.who.int/icvp/StructureDefinition/SelectiveDisclosureJWT">
          <valueBoolean value="true"/>
        </extension>
        <identifier>
          <extension url="http://smart.who.int/icvp/StructureDefinition/SelectiveDisclosureJWT">
            <valueBoolean value="true"/>
          </extension>
          <type>
            <coding>
              <system value="http://terminology.hl7.org/CodeSystem/v2-0203"/>
              <code value="PPN"/>
            </coding>
          </type>
          <system value="https://uidai.gov.in/"/>
          <value value="123456789012"/>
        </identifier>
        <active value="true"/>
        <name>
          <extension url="http://smart.who.int/icvp/StructureDefinition/SelectiveDisclosureJWT">
            <valueBoolean value="true"/>
          </extension>
          <use value="official"/>
          <text value="Test Patient"/>
        </name>
        <gender value="female">
          <extension url="http://smart.who.int/icvp/StructureDefinition/SelectiveDisclosureJWT">
            <valueBoolean value="true"/>
          </extension>
        </gender>
        <birthDate value="2023-02-04">
          <extension url="http://smart.who.int/icvp/StructureDefinition/SelectiveDisclosureJWT">
            <valueBoolean value="true"/>
          </extension>
        </birthDate>
      </Patient>
    </resource>
  </entry>
  <entry>
    <fullUrl value="urn:uuid:bc283f8f-0279-4cc1-9d4d-8928b0341d00"/>
    <resource>
      <Immunization>
        <id value="bc283f8f-0279-4cc1-9d4d-8928b0341d00"/>
        <meta>
          <profile value="http://smart.who.int/icvp/StructureDefinition/DVCSDImmunization"/>
        </meta>
        <text>
          <extension url="http://smart.who.int/icvp/StructureDefinition/SelectiveDisclosureJWT">
            <valueBoolean value="true"/>
          </extension>
          <status value="generated"/><div xmlns="http://www.w3.org/1999/xhtml">vaccination event details</div>
        </text>
        <extension url="http://smart.who.int/icvp/StructureDefinition/VaccineProduct">
          <valueIdentifier>
            <system value="http://smart.who.int/pcmt-vaxprequal/CodeSystem/PreQualProductIDs"/>
            <value value="http://smart.who.int/pcmt/StructureDefinition/Product/PolioVaccineOralOPVBivalProduct756b50d1047d7e92674342044a986a4e"/>
          </valueIdentifier>
        </extension>
        <extension url="http://smart.who.int/icvp/StructureDefinition/SelectiveDisclosureJWT">
          <valueBoolean value="true"/>
        </extension>
        <status value="completed"/>
        <vaccineCode>
          <coding>
            <code value="YellowFeverProductd2c75a15ed309658b3968519ddb31690"/>
          </coding>
        </vaccineCode>
        <patient>
          <reference value="urn:uuid:157863f7-fdea-4d11-92ff-f33345a560e4"/>
        </patient>
        <occurrenceDateTime value="2024-05-23"/>
        <lotNumber value="67890"/>
        <performer>
          <actor>
            <reference value="urn:uuid:086a66bd-63d0-442a-900f-b540f6b8cebe"/>
          </actor>
        </performer>
      </Immunization>
    </resource>
  </entry>
</Bundle>